trials.thisRepN,trials.thisTrialN,trials.thisN,trials.thisIndex,thisRow.t,notes,trial.started,fixation.started,fixation.stopped,key_resp.started,trial.stopped,key_resp.keys,key_resp.corr,key_resp.rt,key_resp.duration,tilt,participant,session,date,expName,psychopyVersion,frameRate,expStart,
0,0,0,0,0.01131039997562766,,0.006255999905988574,0.01131039997562766,1.0509331999346614,1.0509331999346614,2.2267336999066174,down,1,1.1632608999498188,None,2,868159,001,2024-09-13_15h40.31.396,Orientation_Discrimination_singal.Detection_Priyanshi,2024.1.5,None,2024-09-13 15h40.41.877625 +0530,
1,0,1,0,2.2339641000144184,,2.229197199922055,2.2339641000144184,3.2487077999394387,3.2318875999189913,3.9999488999601454,up,0,0.7614965001121163,None,2,868159,001,2024-09-13_15h40.31.396,Orientation_Discrimination_singal.Detection_Priyanshi,2024.1.5,None,2024-09-13 15h40.41.877625 +0530,
2,0,2,0,4.015651499852538,,4.001791100017726,4.015651499852538,5.015454399865121,5.015454399865121,5.600489499978721,up,0,0.5745647000148892,None,0,868159,001,2024-09-13_15h40.31.396,Orientation_Discrimination_singal.Detection_Priyanshi,2024.1.5,None,2024-09-13 15h40.41.877625 +0530,
3,0,3,0,5.615302999969572,,5.6034084998536855,5.615302999969572,6.615281399805099,6.615281399805099,7.367059499956667,down,1,0.7389968999195844,None,4,868159,001,2024-09-13_15h40.31.396,Orientation_Discrimination_singal.Detection_Priyanshi,2024.1.5,None,2024-09-13 15h40.41.877625 +0530,
4,0,4,0,7.381990300025791,,7.370086799841374,7.381990300025791,8.3821526998654,8.3821526998654,9.416785799898207,down,1,1.0232309000566602,None,3,868159,001,2024-09-13_15h40.31.396,Orientation_Discrimination_singal.Detection_Priyanshi,2024.1.5,None,2024-09-13 15h40.41.877625 +0530,
5,0,5,0,9.431715899845585,,9.4199761999771,9.431715899845585,10.43196319998242,10.43196319998242,11.133534699911252,up,0,0.6850566999055445,None,2,868159,001,2024-09-13_15h40.31.396,Orientation_Discrimination_singal.Detection_Priyanshi,2024.1.5,None,2024-09-13 15h40.41.877625 +0530,
6,0,6,0,11.148248199839145,,11.137397199869156,11.148248199839145,12.148848199984059,12.148848199984059,12.900518599897623,up,0,0.7366619999520481,None,-3,868159,001,2024-09-13_15h40.31.396,Orientation_Discrimination_singal.Detection_Priyanshi,2024.1.5,None,2024-09-13 15h40.41.877625 +0530,
7,0,7,0,12.915312999859452,,12.90382679994218,12.915312999859452,13.915325699839741,13.915325699839741,14.584161799866706,down,1,0.666751999873668,None,4,868159,001,2024-09-13_15h40.31.396,Orientation_Discrimination_singal.Detection_Priyanshi,2024.1.5,None,2024-09-13 15h40.41.877625 +0530,
8,0,8,0,14.59821919980459,,14.587746999925002,14.59821919980459,15.598931899992749,15.598931899992749,16.467368899844587,up,0,0.8647820998448879,None,-3,868159,001,2024-09-13_15h40.31.396,Orientation_Discrimination_singal.Detection_Priyanshi,2024.1.5,None,2024-09-13 15h40.41.877625 +0530,
9,0,9,0,16.48189549986273,,16.47196100000292,16.48189549986273,17.481347099877894,17.481347099877894,18.30053689982742,up,0,0.8086441000923514,None,-1,868159,001,2024-09-13_15h40.31.396,Orientation_Discrimination_singal.Detection_Priyanshi,2024.1.5,None,2024-09-13 15h40.41.877625 +0530,
10,0,10,0,18.315036099869758,,18.303672999842092,18.315036099869758,19.315556099871174,19.315556099871174,20.133882799884304,down,1,0.8147100999485701,None,4,868159,001,2024-09-13_15h40.31.396,Orientation_Discrimination_singal.Detection_Priyanshi,2024.1.5,None,2024-09-13 15h40.41.877625 +0530,
11,0,11,0,20.148798999842256,,20.13886159984395,20.148798999842256,21.148795699933544,21.148795699933544,21.916900399839506,up,1,0.7610557000152767,None,0,868159,001,2024-09-13_15h40.31.396,Orientation_Discrimination_singal.Detection_Priyanshi,2024.1.5,None,2024-09-13 15h40.41.877625 +0530,
12,0,12,0,21.931431700009853,,21.921975399833173,21.931431700009853,22.93162940000184,22.93162940000184,23.633895699866116,up,0,0.6989766999613494,None,3,868159,001,2024-09-13_15h40.31.396,Orientation_Discrimination_singal.Detection_Priyanshi,2024.1.5,None,2024-09-13 15h40.41.877625 +0530,
13,0,13,0,23.648715100018308,,23.638023999985307,23.648715100018308,24.648534999927506,24.648534999927506,25.33320100000128,up,1,0.6777029000222683,None,0,868159,001,2024-09-13_15h40.31.396,Orientation_Discrimination_singal.Detection_Priyanshi,2024.1.5,None,2024-09-13 15h40.41.877625 +0530,
14,0,14,0,25.348288099979982,,25.337846799986437,25.348288099979982,26.348111599916592,26.348111599916592,27.366928699892014,up,0,1.0030636000446975,None,-4,868159,001,2024-09-13_15h40.31.396,Orientation_Discrimination_singal.Detection_Priyanshi,2024.1.5,None,2024-09-13 15h40.41.877625 +0530,
15,0,15,0,27.38179189991206,,27.371118699898943,27.38179189991206,28.381832299986854,28.381832299986854,29.03354289988056,up,1,0.6403185999952257,None,0,868159,001,2024-09-13_15h40.31.396,Orientation_Discrimination_singal.Detection_Priyanshi,2024.1.5,None,2024-09-13 15h40.41.877625 +0530,
16,0,16,0,29.04817229998298,,29.037125499919057,29.04817229998298,30.04817759990692,30.04817759990692,30.800073799910024,up,0,0.7357142001856118,None,2,868159,001,2024-09-13_15h40.31.396,Orientation_Discrimination_singal.Detection_Priyanshi,2024.1.5,None,2024-09-13 15h40.41.877625 +0530,
17,0,17,0,30.81469119992107,,30.80494049983099,30.81469119992107,31.815041600028053,31.815041600028053,32.65038809995167,down,1,0.8276683001313359,None,3,868159,001,2024-09-13_15h40.31.396,Orientation_Discrimination_singal.Detection_Priyanshi,2024.1.5,None,2024-09-13 15h40.41.877625 +0530,
18,0,18,0,32.66507519991137,,32.654635599814355,32.66507519991137,33.66466739983298,33.66466739983298,34.250368000008166,up,1,0.5828534001484513,None,0,868159,001,2024-09-13_15h40.31.396,Orientation_Discrimination_singal.Detection_Priyanshi,2024.1.5,None,2024-09-13 15h40.41.877625 +0530,
19,0,19,0,34.26434039999731,,34.256051199976355,34.26434039999731,35.26495520002209,35.26495520002209,36.21691940003075,up,0,0.9421218999195844,None,-1,868159,001,2024-09-13_15h40.31.396,Orientation_Discrimination_singal.Detection_Priyanshi,2024.1.5,None,2024-09-13 15h40.41.877625 +0530,
20,0,20,0,36.2313977999147,,36.221064699813724,36.2313977999147,37.23123099980876,37.23123099980876,37.916451500030234,up,1,0.6691656999755651,None,0,868159,001,2024-09-13_15h40.31.396,Orientation_Discrimination_singal.Detection_Priyanshi,2024.1.5,None,2024-09-13 15h40.41.877625 +0530,
21,0,21,0,37.9310105999466,,37.92069299984723,37.9310105999466,38.93106279987842,38.93106279987842,39.81662579998374,down,1,0.8701947999652475,None,-3,868159,001,2024-09-13_15h40.31.396,Orientation_Discrimination_singal.Detection_Priyanshi,2024.1.5,None,2024-09-13 15h40.41.877625 +0530,
22,0,22,0,39.83137629996054,,39.82086579990573,39.83137629996054,40.83147539990023,40.83147539990023,41.64988309983164,down,1,0.8126754001714289,None,4,868159,001,2024-09-13_15h40.31.396,Orientation_Discrimination_singal.Detection_Priyanshi,2024.1.5,None,2024-09-13 15h40.41.877625 +0530,
23,0,23,0,41.66445579985157,,41.65446829982102,41.66445579985157,42.66448239982128,42.66448239982128,43.516515699913725,down,1,0.8408298001158983,None,-2,868159,001,2024-09-13_15h40.31.396,Orientation_Discrimination_singal.Detection_Priyanshi,2024.1.5,None,2024-09-13 15h40.41.877625 +0530,
24,0,24,0,43.531226799823344,,43.52072189981118,43.531226799823344,44.53127609984949,44.53127609984949,45.33271919982508,up,1,0.7873619999736547,None,0,868159,001,2024-09-13_15h40.31.396,Orientation_Discrimination_singal.Detection_Priyanshi,2024.1.5,None,2024-09-13 15h40.41.877625 +0530,
25,0,25,0,45.34764529997483,,45.33773609995842,45.34764529997483,46.34766319999471,46.34766319999471,47.0995839999523,up,1,0.7441946000326425,None,0,868159,001,2024-09-13_15h40.31.396,Orientation_Discrimination_singal.Detection_Priyanshi,2024.1.5,None,2024-09-13 15h40.41.877625 +0530,
26,0,26,0,47.11423789989203,,47.104460399830714,47.11423789989203,48.114546899916604,48.114546899916604,49.11784969992004,up,0,1.000042299972847,None,1,868159,001,2024-09-13_15h40.31.396,Orientation_Discrimination_singal.Detection_Priyanshi,2024.1.5,None,2024-09-13 15h40.41.877625 +0530,
27,0,27,0,49.13136329990812,,49.12117189983837,49.13136329990812,50.13081029988825,50.13081029988825,50.63217939995229,up,1,0.48455880000256,None,0,868159,001,2024-09-13_15h40.31.396,Orientation_Discrimination_singal.Detection_Priyanshi,2024.1.5,None,2024-09-13 15h40.41.877625 +0530,
28,0,28,0,50.64706539991312,,50.637843899894506,50.64706539991312,51.648027800023556,51.648027800023556,52.20007869997062,up,0,0.5438971999101341,None,1,868159,001,2024-09-13_15h40.31.396,Orientation_Discrimination_singal.Detection_Priyanshi,2024.1.5,None,2024-09-13 15h40.41.877625 +0530,
29,0,29,0,52.21457879990339,,52.204983999952674,52.21457879990339,53.214262899942696,53.214262899942696,53.68252379982732,up,1,0.45674700010567904,None,0,868159,001,2024-09-13_15h40.31.396,Orientation_Discrimination_singal.Detection_Priyanshi,2024.1.5,None,2024-09-13 15h40.41.877625 +0530,
30,0,30,0,53.697503899922594,,53.687629299936816,53.697503899922594,54.6977255998645,54.6977255998645,55.165884899906814,up,1,0.46160659985616803,None,0,868159,001,2024-09-13_15h40.31.396,Orientation_Discrimination_singal.Detection_Priyanshi,2024.1.5,None,2024-09-13 15h40.41.877625 +0530,
31,0,31,0,55.181143400026485,,55.17031499999575,55.181143400026485,56.18111309991218,56.18111309991218,56.66614459990524,up,1,0.48138899984769523,None,0,868159,001,2024-09-13_15h40.31.396,Orientation_Discrimination_singal.Detection_Priyanshi,2024.1.5,None,2024-09-13 15h40.41.877625 +0530,
32,0,32,0,56.6810250999406,,56.67108809994534,56.6810250999406,57.680570299969986,57.680570299969986,58.19921529991552,down,1,0.5061129999812692,None,-3,868159,001,2024-09-13_15h40.31.396,Orientation_Discrimination_singal.Detection_Priyanshi,2024.1.5,None,2024-09-13 15h40.41.877625 +0530,
33,0,33,0,58.21374999987893,,58.20556229981594,58.21374999987893,59.21399139985442,59.21399139985442,60.36589999985881,down,1,1.1379912998527288,None,-4,868159,001,2024-09-13_15h40.31.396,Orientation_Discrimination_singal.Detection_Priyanshi,2024.1.5,None,2024-09-13 15h40.41.877625 +0530,
34,0,34,0,60.38109599985182,,60.370220499811694,60.38109599985182,61.380512999836355,61.380512999836355,62.115874300012365,up,1,0.7205335998442024,None,0,868159,001,2024-09-13_15h40.31.396,Orientation_Discrimination_singal.Detection_Priyanshi,2024.1.5,None,2024-09-13 15h40.41.877625 +0530,
35,0,35,0,62.13045409996994,,62.12039769999683,62.13045409996994,63.130060700001195,63.130060700001195,63.9994039000012,down,1,0.8562048000749201,None,-5,868159,001,2024-09-13_15h40.31.396,Orientation_Discrimination_singal.Detection_Priyanshi,2024.1.5,None,2024-09-13 15h40.41.877625 +0530,
36,0,36,0,64.01430679997429,,64.00403429986909,64.01430679997429,65.01425509992987,65.01425509992987,65.78247029986233,up,1,0.7607404000591487,None,0,868159,001,2024-09-13_15h40.31.396,Orientation_Discrimination_singal.Detection_Priyanshi,2024.1.5,None,2024-09-13 15h40.41.877625 +0530,
37,0,37,0,65.79707619990222,,65.78669369989075,65.79707619990222,66.79695259989239,66.79695259989239,67.49977899994701,up,1,0.7003120000008494,None,0,868159,001,2024-09-13_15h40.31.396,Orientation_Discrimination_singal.Detection_Priyanshi,2024.1.5,None,2024-09-13 15h40.41.877625 +0530,
38,0,38,0,67.51411779993214,,67.5042977000121,67.51411779993214,68.51418329984881,68.51418329984881,69.23226960003376,up,0,0.7108490001410246,None,1,868159,001,2024-09-13_15h40.31.396,Orientation_Discrimination_singal.Detection_Priyanshi,2024.1.5,None,2024-09-13 15h40.41.877625 +0530,
39,0,39,0,69.24695569998585,,69.23669799999334,69.24695569998585,70.24703740002587,70.24703740002587,70.7653228000272,up,1,0.5128685000818223,None,0,868159,001,2024-09-13_15h40.31.396,Orientation_Discrimination_singal.Detection_Priyanshi,2024.1.5,None,2024-09-13 15h40.41.877625 +0530,
40,0,40,0,70.78030789992772,,70.76994239981286,70.78030789992772,71.7806398998946,71.7806398998946,72.61583199980669,down,0,0.826098799938336,None,0,868159,001,2024-09-13_15h40.31.396,Orientation_Discrimination_singal.Detection_Priyanshi,2024.1.5,None,2024-09-13 15h40.41.877625 +0530,
41,0,41,0,72.63050939980894,,72.62071709986776,72.63050939980894,73.63017599983141,73.63017599983141,74.2823588999454,up,1,0.6465108999982476,None,0,868159,001,2024-09-13_15h40.31.396,Orientation_Discrimination_singal.Detection_Priyanshi,2024.1.5,None,2024-09-13 15h40.41.877625 +0530,
42,0,42,0,74.29684780002572,,74.28700779983774,74.29684780002572,75.29701390000992,75.29701390000992,75.83232169994153,up,0,0.5272671999409795,None,-2,868159,001,2024-09-13_15h40.31.396,Orientation_Discrimination_singal.Detection_Priyanshi,2024.1.5,None,2024-09-13 15h40.41.877625 +0530,
43,0,43,0,75.84716709982604,,75.83673099987209,75.84716709982604,76.84714800002985,76.84714800002985,77.581695899833,down,1,0.7177083001006395,None,-5,868159,001,2024-09-13_15h40.31.396,Orientation_Discrimination_singal.Detection_Priyanshi,2024.1.5,None,2024-09-13 15h40.41.877625 +0530,
44,0,44,0,77.59679009998217,,77.58635539980605,77.59679009998217,78.59684729995206,78.59684729995206,79.03195789991878,down,1,0.42192799993790686,None,-5,868159,001,2024-09-13_15h40.31.396,Orientation_Discrimination_singal.Detection_Priyanshi,2024.1.5,None,2024-09-13 15h40.41.877625 +0530,
45,0,45,0,79.04662079992704,,79.03639609995298,79.04662079992704,80.04712499980815,80.04712499980815,80.96514969994314,up,0,0.9026190000586212,None,-3,868159,001,2024-09-13_15h40.31.396,Orientation_Discrimination_singal.Detection_Priyanshi,2024.1.5,None,2024-09-13 15h40.41.877625 +0530,
46,0,46,0,80.9801540998742,,80.96768000000156,80.9801540998742,81.97987169981934,81.97987169981934,82.46538869990036,up,0,0.4756799000315368,None,2,868159,001,2024-09-13_15h40.31.396,Orientation_Discrimination_singal.Detection_Priyanshi,2024.1.5,None,2024-09-13 15h40.41.877625 +0530,
47,0,47,0,82.47972960001789,,82.4713079999201,82.47972960001789,83.48028459982015,83.48028459982015,83.96540949982591,up,1,0.4759372000116855,None,0,868159,001,2024-09-13_15h40.31.396,Orientation_Discrimination_singal.Detection_Priyanshi,2024.1.5,None,2024-09-13 15h40.41.877625 +0530,
48,0,48,0,83.98029599990696,,83.96980079985224,83.98029599990696,84.9803783998359,84.9803783998359,85.86607349989936,up,1,0.8768631001003087,None,0,868159,001,2024-09-13_15h40.31.396,Orientation_Discrimination_singal.Detection_Priyanshi,2024.1.5,None,2024-09-13 15h40.41.877625 +0530,
49,0,49,0,85.88021249999292,,85.8696898999624,85.88021249999292,86.87978959991597,86.87978959991597,87.74955759989098,down,0,0.8666330000851303,None,0,868159,001,2024-09-13_15h40.31.396,Orientation_Discrimination_singal.Detection_Priyanshi,2024.1.5,None,2024-09-13 15h40.41.877625 +0530,
50,0,50,0,87.76355689996853,,87.7538973998744,87.76355689996853,88.76349369995296,88.76349369995296,89.23277669982053,up,0,0.46523769991472363,None,0,868159,001,2024-09-13_15h40.31.396,Orientation_Discrimination_singal.Detection_Priyanshi,2024.1.5,None,2024-09-13 15h40.41.877625 +0530,
51,0,51,0,89.24672249983996,,89.23941429983824,89.24672249983996,90.2464318999555,90.2464318999555,90.79827499995008,up,1,0.5474966000765562,None,0,868159,001,2024-09-13_15h40.31.396,Orientation_Discrimination_singal.Detection_Priyanshi,2024.1.5,None,2024-09-13 15h40.41.877625 +0530,
52,0,52,0,90.81308449991047,,90.80260099982843,90.81308449991047,91.81355039984919,91.81355039984919,92.38194309989922,up,1,0.5610237000510097,None,0,868159,001,2024-09-13_15h40.31.396,Orientation_Discrimination_singal.Detection_Priyanshi,2024.1.5,None,2024-09-13 15h40.41.877625 +0530,
53,0,53,0,92.39661749987863,,92.38625979982316,92.39661749987863,93.39650419983082,93.39650419983082,93.96495489985682,up,1,0.5645635998807847,None,0,868159,001,2024-09-13_15h40.31.396,Orientation_Discrimination_singal.Detection_Priyanshi,2024.1.5,None,2024-09-13 15h40.41.877625 +0530,
54,0,54,0,93.97959929984063,,93.9696730999276,93.97959929984063,94.97960979980417,94.97960979980417,95.44751299987547,down,1,0.45170920016244054,None,-2,868159,001,2024-09-13_15h40.31.396,Orientation_Discrimination_singal.Detection_Priyanshi,2024.1.5,None,2024-09-13 15h40.41.877625 +0530,
55,0,55,0,95.46311299991794,,95.44949189992622,95.46311299991794,96.4635637998581,96.4635637998581,96.94782749982551,down,1,0.4676684997975826,None,4,868159,001,2024-09-13_15h40.31.396,Orientation_Discrimination_singal.Detection_Priyanshi,2024.1.5,None,2024-09-13 15h40.41.877625 +0530,
56,0,56,0,96.96330249984749,,96.952454400016,96.96330249984749,97.96296329982579,97.96296329982579,98.9146730999928,down,1,0.9370109001174569,None,-2,868159,001,2024-09-13_15h40.31.396,Orientation_Discrimination_singal.Detection_Priyanshi,2024.1.5,None,2024-09-13 15h40.41.877625 +0530,
57,0,57,0,98.9294002999086,,98.91941370000131,98.9294002999086,99.9298457999248,99.9298457999248,100.5815318999812,down,1,0.6467950001824647,None,-2,868159,001,2024-09-13_15h40.31.396,Orientation_Discrimination_singal.Detection_Priyanshi,2024.1.5,None,2024-09-13 15h40.41.877625 +0530,
58,0,58,0,100.59672369994223,,100.58586829993874,100.59672369994223,101.59620169992559,101.59620169992559,102.14901899988763,up,1,0.549036999931559,None,0,868159,001,2024-09-13_15h40.31.396,Orientation_Discrimination_singal.Detection_Priyanshi,2024.1.5,None,2024-09-13 15h40.41.877625 +0530,
59,0,59,0,102.16276259999722,,102.15434059989639,102.16276259999722,103.16275859996676,103.16275859996676,103.74833750003017,up,1,0.5705905000213534,None,0,868159,001,2024-09-13_15h40.31.396,Orientation_Discrimination_singal.Detection_Priyanshi,2024.1.5,None,2024-09-13 15h40.41.877625 +0530,
60,0,60,0,103.76343079982325,,103.75237459992059,103.76343079982325,104.76323029980995,104.76323029980995,105.38153030001558,down,1,0.6132658999413252,None,-4,868159,001,2024-09-13_15h40.31.396,Orientation_Discrimination_singal.Detection_Priyanshi,2024.1.5,None,2024-09-13 15h40.41.877625 +0530,
61,0,61,0,105.39633399993181,,105.38580609997734,105.39633399993181,106.39615049981512,106.39615049981512,107.46478029992431,down,1,1.0567212000023574,None,-1,868159,001,2024-09-13_15h40.31.396,Orientation_Discrimination_singal.Detection_Priyanshi,2024.1.5,None,2024-09-13 15h40.41.877625 +0530,
62,0,62,0,107.47945369989611,,107.46937679988332,107.47945369989611,108.47960389987566,108.47960389987566,109.24877359997481,up,0,0.758018699940294,None,2,868159,001,2024-09-13_15h40.31.396,Orientation_Discrimination_singal.Detection_Priyanshi,2024.1.5,None,2024-09-13 15h40.41.877625 +0530,
63,0,63,0,109.26299529988319,,109.25331419985741,109.26299529988319,110.26263189991005,110.26263189991005,111.09761419985443,up,1,0.8182953000068665,None,0,868159,001,2024-09-13_15h40.31.396,Orientation_Discrimination_singal.Detection_Priyanshi,2024.1.5,None,2024-09-13 15h40.41.877625 +0530,
64,0,64,0,111.11264909990132,,111.10229379986413,111.11264909990132,112.11304729990661,112.11304729990661,113.06512849987485,down,1,0.9429563998710364,None,-5,868159,001,2024-09-13_15h40.31.396,Orientation_Discrimination_singal.Detection_Priyanshi,2024.1.5,None,2024-09-13 15h40.41.877625 +0530,
65,0,65,0,113.07958489982411,,113.06970339990221,113.07958489982411,114.079202799825,114.079202799825,114.76523489993997,down,0,0.682392300106585,None,0,868159,001,2024-09-13_15h40.31.396,Orientation_Discrimination_singal.Detection_Priyanshi,2024.1.5,None,2024-09-13 15h40.41.877625 +0530,
66,0,66,0,114.77895429986529,,114.76963300001808,114.77895429986529,115.77949849981815,115.77949849981815,116.28126519988291,up,1,0.48954320000484586,None,0,868159,001,2024-09-13_15h40.31.396,Orientation_Discrimination_singal.Detection_Priyanshi,2024.1.5,None,2024-09-13 15h40.41.877625 +0530,
67,0,67,0,116.29622749984264,,116.28581869998015,116.29622749984264,117.29627269995399,117.29627269995399,118.04798739985563,up,0,0.7482074999716133,None,1,868159,001,2024-09-13_15h40.31.396,Orientation_Discrimination_singal.Detection_Priyanshi,2024.1.5,None,2024-09-13 15h40.41.877625 +0530,
68,0,68,0,118.0624481998384,,118.05260899988934,118.0624481998384,119.0624900998082,119.0624900998082,119.5477605999913,up,1,0.47835449990816414,None,0,868159,001,2024-09-13_15h40.31.396,Orientation_Discrimination_singal.Detection_Priyanshi,2024.1.5,None,2024-09-13 15h40.41.877625 +0530,
69,0,69,0,119.56285139988177,,119.55219399998896,119.56285139988177,120.56264409981668,120.56264409981668,121.2648228998296,up,1,0.693013499956578,None,0,868159,001,2024-09-13_15h40.31.396,Orientation_Discrimination_singal.Detection_Priyanshi,2024.1.5,None,2024-09-13 15h40.41.877625 +0530,
70,0,70,0,121.27942699985579,,121.26824270002544,121.27942699985579,122.2790887998417,122.2790887998417,123.04640679992735,up,1,0.7543095999862999,None,0,868159,001,2024-09-13_15h40.31.396,Orientation_Discrimination_singal.Detection_Priyanshi,2024.1.5,None,2024-09-13 15h40.41.877625 +0530,
71,0,71,0,123.06193730002269,,123.04927699989639,123.06193730002269,124.06263539986685,124.06263539986685,124.88114129984751,up,1,0.8072983999736607,None,0,868159,001,2024-09-13_15h40.31.396,Orientation_Discrimination_singal.Detection_Priyanshi,2024.1.5,None,2024-09-13 15h40.41.877625 +0530,
72,0,72,0,124.89591139997356,,124.8860506999772,124.89591139997356,125.8956304998137,125.8956304998137,126.91390779986978,up,0,1.0042852000333369,None,1,868159,001,2024-09-13_15h40.31.396,Orientation_Discrimination_singal.Detection_Priyanshi,2024.1.5,None,2024-09-13 15h40.41.877625 +0530,
73,0,73,0,126.92870309995487,,126.91884860000573,126.92870309995487,127.9294695998542,127.9294695998542,128.76454279990867,down,1,0.8302652998827398,None,2,868159,001,2024-09-13_15h40.31.396,Orientation_Discrimination_singal.Detection_Priyanshi,2024.1.5,None,2024-09-13 15h40.41.877625 +0530,
74,0,74,0,128.77925379993394,,128.7679749999661,128.77925379993394,129.77875699987635,129.77875699987635,130.73065229994245,down,1,0.9439395999070257,None,-3,868159,001,2024-09-13_15h40.31.396,Orientation_Discrimination_singal.Detection_Priyanshi,2024.1.5,None,2024-09-13 15h40.41.877625 +0530,
75,0,75,0,130.74544209986925,,130.73499249992892,130.74544209986925,131.74588629999198,131.74588629999198,132.73083709995262,up,1,0.979581099934876,None,0,868159,001,2024-09-13_15h40.31.396,Orientation_Discrimination_singal.Detection_Priyanshi,2024.1.5,None,2024-09-13 15h40.41.877625 +0530,
76,0,76,0,132.74576599989086,,132.73496429994702,132.74576599989086,133.74536319985054,133.74536319985054,134.36361669981852,up,1,0.6042725001461804,None,0,868159,001,2024-09-13_15h40.31.396,Orientation_Discrimination_singal.Detection_Priyanshi,2024.1.5,None,2024-09-13 15h40.41.877625 +0530,
77,0,77,0,134.37863329984248,,134.36841179989278,134.37863329984248,135.3784932999406,135.3784932999406,135.9306218000129,up,1,0.5471002000849694,None,0,868159,001,2024-09-13_15h40.31.396,Orientation_Discrimination_singal.Detection_Priyanshi,2024.1.5,None,2024-09-13 15h40.41.877625 +0530,
78,0,78,0,135.94565359991975,,135.93623769981787,135.94565359991975,136.9456006998662,136.9456006998662,137.5141706999857,up,1,0.5600411000195891,None,0,868159,001,2024-09-13_15h40.31.396,Orientation_Discrimination_singal.Detection_Priyanshi,2024.1.5,None,2024-09-13 15h40.41.877625 +0530,
79,0,79,0,137.52821039990522,,137.52064949995838,137.52821039990522,138.52851169998758,138.52851169998758,139.0139474000316,up,0,0.4752391998190433,None,-1,868159,001,2024-09-13_15h40.31.396,Orientation_Discrimination_singal.Detection_Priyanshi,2024.1.5,None,2024-09-13 15h40.41.877625 +0530,
80,0,80,0,139.0284274998121,,139.01881969999522,139.0284274998121,140.02867030003108,140.02867030003108,140.88064669980668,down,1,0.8351679998449981,None,3,868159,001,2024-09-13_15h40.31.396,Orientation_Discrimination_singal.Detection_Priyanshi,2024.1.5,None,2024-09-13 15h40.41.877625 +0530,
81,0,81,0,140.89555409993045,,140.88527509989217,140.89555409993045,141.89504390000366,141.89504390000366,142.86359629989602,down,1,0.9628255998250097,None,-3,868159,001,2024-09-13_15h40.31.396,Orientation_Discrimination_singal.Detection_Priyanshi,2024.1.5,None,2024-09-13 15h40.41.877625 +0530,
82,0,82,0,142.87862099986523,,142.86802749987692,142.87862099986523,143.8786942998413,143.8786942998413,144.41374249989167,down,1,0.5274123998824507,None,3,868159,001,2024-09-13_15h40.31.396,Orientation_Discrimination_singal.Detection_Priyanshi,2024.1.5,None,2024-09-13 15h40.41.877625 +0530,
83,0,83,0,144.42859499994665,,144.41792349983007,144.42859499994665,145.42861269996502,145.42861269996502,146.23080359981395,up,1,0.7941034999676049,None,0,868159,001,2024-09-13_15h40.31.396,Orientation_Discrimination_singal.Detection_Priyanshi,2024.1.5,None,2024-09-13 15h40.41.877625 +0530,
84,0,84,0,146.24528459995054,,146.23606229992583,146.24528459995054,147.2449382999912,147.2449382999912,147.96403509983793,down,1,0.7112295001279563,None,-3,868159,001,2024-09-13_15h40.31.396,Orientation_Discrimination_singal.Detection_Priyanshi,2024.1.5,None,2024-09-13 15h40.41.877625 +0530,
85,0,85,0,147.97856419999152,,147.96871909988113,147.97856419999152,148.97873919992708,148.97873919992708,149.7301643998362,down,1,0.7391848000697792,None,3,868159,001,2024-09-13_15h40.31.396,Orientation_Discrimination_singal.Detection_Priyanshi,2024.1.5,None,2024-09-13 15h40.41.877625 +0530,
86,0,86,0,149.74473569984548,,149.73467599996366,149.74473569984548,150.74495959980413,150.74495959980413,151.2470988999121,up,1,0.496506700059399,None,0,868159,001,2024-09-13_15h40.31.396,Orientation_Discrimination_singal.Detection_Priyanshi,2024.1.5,None,2024-09-13 15h40.41.877625 +0530,
87,0,87,0,151.26166199985892,,151.2520355999004,151.26166199985892,152.2617191998288,152.2617191998288,152.71409849985503,up,0,0.4423469000030309,None,0,868159,001,2024-09-13_15h40.31.396,Orientation_Discrimination_singal.Detection_Priyanshi,2024.1.5,None,2024-09-13 15h40.41.877625 +0530,
88,0,88,0,152.72847019997425,,152.718597299885,152.72847019997425,153.72812270000577,153.72812270000577,154.1964272998739,up,1,0.45189670007675886,None,0,868159,001,2024-09-13_15h40.31.396,Orientation_Discrimination_singal.Detection_Priyanshi,2024.1.5,None,2024-09-13 15h40.41.877625 +0530,
89,0,89,0,154.21150189987384,,154.20066959992982,154.21150189987384,155.21145009994507,155.21145009994507,155.74801669991575,up,1,0.5330398001242429,None,0,868159,001,2024-09-13_15h40.31.396,Orientation_Discrimination_singal.Detection_Priyanshi,2024.1.5,None,2024-09-13 15h40.41.877625 +0530,
90,0,90,0,155.76173329981975,,155.7534029998351,155.76173329981975,156.76167329982854,156.76167329982854,157.41442249994725,up,1,0.6506033998448402,None,0,868159,001,2024-09-13_15h40.31.396,Orientation_Discrimination_singal.Detection_Priyanshi,2024.1.5,None,2024-09-13 15h40.41.877625 +0530,
91,0,91,0,157.42839629994705,,157.41871729982086,157.42839629994705,158.42803019983694,158.42803019983694,158.8464261998888,up,1,0.4059881998691708,None,0,868159,001,2024-09-13_15h40.31.396,Orientation_Discrimination_singal.Detection_Priyanshi,2024.1.5,None,2024-09-13 15h40.41.877625 +0530,
92,0,92,0,158.86151369987056,,158.8510938999243,158.86151369987056,159.86165550001897,159.86165550001897,160.3296464998275,up,1,0.46227720007300377,None,0,868159,001,2024-09-13_15h40.31.396,Orientation_Discrimination_singal.Detection_Priyanshi,2024.1.5,None,2024-09-13 15h40.41.877625 +0530,
93,0,93,0,160.34475049981847,,160.33388689998537,160.34475049981847,161.34471789980307,161.34471789980307,161.812793900026,up,1,0.45626370003446937,None,0,868159,001,2024-09-13_15h40.31.396,Orientation_Discrimination_singal.Detection_Priyanshi,2024.1.5,None,2024-09-13 15h40.41.877625 +0530,
94,0,94,0,161.827639099909,,161.81777169997804,161.827639099909,162.8275510999374,162.8275510999374,163.32903159991838,up,0,0.4888486999552697,None,-5,868159,001,2024-09-13_15h40.31.396,Orientation_Discrimination_singal.Detection_Priyanshi,2024.1.5,None,2024-09-13 15h40.41.877625 +0530,
95,0,95,0,163.3443791999016,,163.33303179987706,163.3443791999016,164.344503399916,164.344503399916,165.07906269980595,up,1,0.7301564998924732,None,0,868159,001,2024-09-13_15h40.31.396,Orientation_Discrimination_singal.Detection_Priyanshi,2024.1.5,None,2024-09-13 15h40.41.877625 +0530,
96,0,96,0,165.09440449997783,,165.0812676998321,165.09440449997783,166.09418839984573,166.09418839984573,166.72861199988984,up,1,0.6330504999496043,None,0,868159,001,2024-09-13_15h40.31.396,Orientation_Discrimination_singal.Detection_Priyanshi,2024.1.5,None,2024-09-13 15h40.41.877625 +0530,
97,0,97,0,166.7440269999206,,166.73081889981404,166.7440269999206,167.74465020000935,167.74465020000935,168.56235489994287,down,1,0.802301999880001,None,2,868159,001,2024-09-13_15h40.31.396,Orientation_Discrimination_singal.Detection_Priyanshi,2024.1.5,None,2024-09-13 15h40.41.877625 +0530,
98,0,98,0,168.57774009997956,,168.56481429981068,168.57774009997956,169.5774147999473,169.5774147999473,170.29521979996935,down,1,0.7106151999905705,None,4,868159,001,2024-09-13_15h40.31.396,Orientation_Discrimination_singal.Detection_Priyanshi,2024.1.5,None,2024-09-13 15h40.41.877625 +0530,
99,0,99,0,170.31064689997584,,170.29767889995128,170.31064689997584,171.31091229990125,171.31091229990125,172.16256879991852,up,1,0.8421834001783282,None,0,868159,001,2024-09-13_15h40.31.396,Orientation_Discrimination_singal.Detection_Priyanshi,2024.1.5,None,2024-09-13 15h40.41.877625 +0530,
